[{"Trial":1,"StimID":3,"Type":"Incongruent","CResp":"Left","Resp":"Left","ACC":1,"RT":1440,"Device":"Touch"},{"Trial":2,"StimID":11,"Type":"Congruent","CResp":"Left","Resp":"Down","ACC":0,"RT":38,"Device":"Touch"},{"Trial":3,"StimID":14,"Type":"Incongruent","CResp":"Down","Resp":"Up","ACC":0,"RT":189,"Device":"Touch"},{"Trial":4,"StimID":1,"Type":"Congruent","CResp":"Up","Resp":"Right","ACC":0,"RT":29,"Device":"Touch"},{"Trial":5,"StimID":16,"Type":"Congruent","CResp":"Right","Resp":"Left","ACC":0,"RT":26,"Device":"Touch"},{"Trial":6,"StimID":1,"Type":"Congruent","CResp":"Up","Resp":"Down","ACC":0,"RT":41,"Device":"Touch"},{"Trial":7,"StimID":10,"Type":"Incongruent","CResp":"Down","Resp":"Up","ACC":0,"RT":679,"Device":"Touch"},{"Trial":8,"StimID":16,"Type":"Congruent","CResp":"Right","Resp":"Right","ACC":1,"RT":113,"Device":"Touch"},{"Trial":9,"StimID":6,"Type":"Congruent","CResp":"Down","Resp":"Down","ACC":1,"RT":1366,"Device":"Touch"},{"Trial":10,"StimID":1,"Type":"Congruent","CResp":"Up","Resp":"Up","ACC":1,"RT":1901,"Device":"Touch"},{"Trial":11,"StimID":11,"Type":"Congruent","CResp":"Left","Resp":"Left","ACC":1,"RT":1824,"Device":"Touch"},{"Trial":12,"StimID":6,"Type":"Congruent","CResp":"Down","Resp":"Down","ACC":1,"RT":5470,"Device":"Touch"},{"Trial":13,"StimID":12,"Type":"Incongruent","CResp":"Right","Resp":"Left","ACC":0,"RT":2384,"Device":"Touch"},{"Trial":14,"StimID":5,"Type":"Incongruent","CResp":"Up","Resp":"Up","ACC":1,"RT":2802,"Device":"Touch"},{"Trial":15,"StimID":11,"Type":"Congruent","CResp":"Left","Resp":"Left","ACC":1,"RT":3761,"Device":"Touch"},{"Trial":16,"StimID":2,"Type":"Incongruent","CResp":"Down","Resp":"Up","ACC":0,"RT":2994,"Device":"Touch"},{"Trial":17,"StimID":6,"Type":"Congruent","CResp":"Down","Resp":"Right","ACC":0,"RT":73,"Device":"Touch"},{"Trial":18,"StimID":15,"Type":"Incongruent","CResp":"Left","Resp":"Down","ACC":0,"RT":25,"Device":"Touch"},{"Trial":19,"StimID":16,"Type":"Congruent","CResp":"Right","Resp":"Left","ACC":0,"RT":323,"Device":"Touch"},{"Trial":20,"StimID":4,"Type":"Incongruent","CResp":"Right","Resp":"Down","ACC":0,"RT":224,"Device":"Touch"},{"Trial":21,"StimID":9,"Type":"Incongruent","CResp":"Up","Resp":"Up","ACC":1,"RT":1241,"Device":"Touch"},{"Trial":22,"StimID":13,"Type":"Incongruent","CResp":"Up","Resp":"Right","ACC":0,"RT":4330,"Device":"Touch"},{"Trial":23,"StimID":8,"Type":"Incongruent","CResp":"Right","Resp":"Left","ACC":0,"RT":232,"Device":"Touch"},{"Trial":24,"StimID":7,"Type":"Incongruent","CResp":"Left","Resp":"Down","ACC":0,"RT":345,"Device":"Touch"},{"Trial":25,"StimID":1,"Type":"Congruent","CResp":"Up","Resp":"Right","ACC":0,"RT":543,"Device":"Touch"},{"Trial":26,"StimID":11,"Type":"Congruent","CResp":"Left","Resp":"Left","ACC":1,"RT":1020,"Device":"Touch"},{"Trial":27,"StimID":10,"Type":"Incongruent","CResp":"Down","Resp":"Down","ACC":1,"RT":1176,"Device":"Touch"},{"Trial":28,"StimID":2,"Type":"Incongruent","CResp":"Down","Resp":"Down","ACC":1,"RT":776,"Device":"Touch"},{"Trial":29,"StimID":15,"Type":"Incongruent","CResp":"Left","Resp":"Left","ACC":1,"RT":1277,"Device":"Touch"},{"Trial":30,"StimID":6,"Type":"Congruent","CResp":"Down","Resp":"Right","ACC":0,"RT":1590,"Device":"Touch"},{"Trial":31,"StimID":16,"Type":"Congruent","CResp":"Right","Resp":"Right","ACC":1,"RT":860,"Device":"Touch"},{"Trial":32,"StimID":1,"Type":"Congruent","CResp":"Up","Resp":"Down","ACC":0,"RT":2677,"Device":"Touch"},{"Trial":33,"StimID":6,"Type":"Congruent","CResp":"Down","Resp":"Up","ACC":0,"RT":490,"Device":"Touch"},{"Trial":34,"StimID":16,"Type":"Congruent","CResp":"Right","Resp":"Right","ACC":1,"RT":1134,"Device":"Touch"},{"Trial":35,"StimID":7,"Type":"Incongruent","CResp":"Left","Resp":"Down","ACC":0,"RT":2271,"Device":"Touch"},{"Trial":36,"StimID":8,"Type":"Incongruent","CResp":"Right","Resp":"Left","ACC":0,"RT":643,"Device":"Touch"},{"Trial":37,"StimID":16,"Type":"Congruent","CResp":"Right","Resp":"Right","ACC":1,"RT":1524,"Device":"Touch"},{"Trial":38,"StimID":11,"Type":"Congruent","CResp":"Left","Resp":"Right","ACC":0,"RT":3051,"Device":"Touch"},{"Trial":39,"StimID":12,"Type":"Incongruent","CResp":"Right","Resp":"Up","ACC":0,"RT":410,"Device":"Touch"},{"Trial":40,"StimID":11,"Type":"Congruent","CResp":"Left","Resp":"Left","ACC":1,"RT":33,"Device":"Touch"},{"Trial":41,"StimID":3,"Type":"Incongruent","CResp":"Left","Resp":"Right","ACC":0,"RT":2167,"Device":"Touch"},{"Trial":42,"StimID":13,"Type":"Incongruent","CResp":"Up","Resp":"Up","ACC":1,"RT":744,"Device":"Touch"},{"Trial":43,"StimID":4,"Type":"Incongruent","CResp":"Right","Resp":"Right","ACC":1,"RT":2058,"Device":"Touch"},{"Trial":44,"StimID":5,"Type":"Incongruent","CResp":"Up","Resp":"Down","ACC":0,"RT":8271,"Device":"Touch"},{"Trial":45,"StimID":6,"Type":"Congruent","CResp":"Down","Resp":"Right","ACC":0,"RT":108,"Device":"Touch"},{"Trial":46,"StimID":9,"Type":"Incongruent","CResp":"Up","Resp":"Up","ACC":1,"RT":275,"Device":"Touch"},{"Trial":47,"StimID":1,"Type":"Congruent","CResp":"Up","Resp":"Left","ACC":0,"RT":1040,"Device":"Touch"},{"Trial":48,"StimID":14,"Type":"Incongruent","CResp":"Down","Resp":"Down","ACC":1,"RT":705,"Device":"Touch"},{"Trial":49,"StimID":16,"Type":"Congruent","CResp":"Right","Resp":"Left","ACC":0,"RT":2058,"Device":"Touch"},{"Trial":50,"StimID":8,"Type":"Incongruent","CResp":"Right","Resp":"Right","ACC":1,"RT":405,"Device":"Touch"},{"Trial":51,"StimID":5,"Type":"Incongruent","CResp":"Up","Resp":"Down","ACC":0,"RT":8203,"Device":"Touch"},{"Trial":52,"StimID":14,"Type":"Incongruent","CResp":"Down","Resp":"Up","ACC":0,"RT":236,"Device":"Touch"},{"Trial":53,"StimID":12,"Type":"Incongruent","CResp":"Right","Resp":"Right","ACC":1,"RT":627,"Device":"Touch"},{"Trial":54,"StimID":6,"Type":"Congruent","CResp":"Down","Resp":"Down","ACC":1,"RT":1292,"Device":"Touch"},{"Trial":55,"StimID":15,"Type":"Incongruent","CResp":"Left","Resp":"Right","ACC":0,"RT":8983,"Device":"Touch"},{"Trial":56,"StimID":16,"Type":"Congruent","CResp":"Right","Resp":"Down","ACC":0,"RT":527,"Device":"Touch"},{"Trial":57,"StimID":6,"Type":"Congruent","CResp":"Down","Resp":"Up","ACC":0,"RT":232,"Device":"Touch"},{"Trial":58,"StimID":1,"Type":"Congruent","CResp":"Up","Resp":"Left","ACC":0,"RT":206,"Device":"Touch"},{"Trial":59,"StimID":16,"Type":"Congruent","CResp":"Right","Resp":"Right","ACC":1,"RT":2623,"Device":"Touch"},{"Trial":60,"StimID":11,"Type":"Congruent","CResp":"Left","Resp":"Down","ACC":0,"RT":974,"Device":"Touch"},{"Trial":61,"StimID":7,"Type":"Incongruent","CResp":"Left","Resp":"Left","ACC":1,"RT":15117,"Device":"Touch"},{"Trial":62,"StimID":2,"Type":"Incongruent","CResp":"Down","Resp":"Down","ACC":1,"RT":4635,"Device":"Touch"},{"Trial":63,"StimID":6,"Type":"Congruent","CResp":"Down","Resp":"Down","ACC":1,"RT":3519,"Device":"Touch"},{"Trial":64,"StimID":3,"Type":"Incongruent","CResp":"Left","Resp":"None","ACC":-1,"RT":0,"Device":"None"}]
