[{"Trial":1,"Pattern":"1100","ProbRain":0.1,"Outcome":"Rain","Resp":"Sun","ACC":0,"RT":3253,"Device":"touch"},{"Trial":2,"Pattern":"1110","ProbRain":0.8,"Outcome":"Sun","Resp":"Rain","ACC":0,"RT":3709,"Device":"touch"},{"Trial":3,"Pattern":"0101","ProbRain":0.6,"Outcome":"Rain","Resp":"Sun","ACC":0,"RT":3466,"Device":"touch"},{"Trial":4,"Pattern":"1001","ProbRain":0.3,"Outcome":"Sun","Resp":"Rain","ACC":0,"RT":775,"Device":"touch"},{"Trial":5,"Pattern":"1010","ProbRain":0.2,"Outcome":"Sun","Resp":"Sun","ACC":1,"RT":304,"Device":"touch"},{"Trial":6,"Pattern":"1101","ProbRain":0.9,"Outcome":"Rain","Resp":"Rain","ACC":1,"RT":2016,"Device":"touch"},{"Trial":7,"Pattern":"1110","ProbRain":0.8,"Outcome":"Rain","Resp":"Sun","ACC":0,"RT":1392,"Device":"touch"},{"Trial":8,"Pattern":"0011","ProbRain":0.7,"Outcome":"Rain","Resp":"Rain","ACC":1,"RT":704,"Device":"touch"},{"Trial":9,"Pattern":"0101","ProbRain":0.6,"Outcome":"Rain","Resp":"Rain","ACC":1,"RT":560,"Device":"touch"},{"Trial":10,"Pattern":"1100","ProbRain":0.1,"Outcome":"Sun","Resp":"Rain","ACC":0,"RT":1136,"Device":"touch"},{"Trial":11,"Pattern":"0110","ProbRain":0.4,"Outcome":"Rain","Resp":"Sun","ACC":0,"RT":945,"Device":"touch"},{"Trial":12,"Pattern":"1101","ProbRain":0.9,"Outcome":"Sun","Resp":"Sun","ACC":1,"RT":2112,"Device":"touch"},{"Trial":13,"Pattern":"1001","ProbRain":0.3,"Outcome":"Sun","Resp":"Sun","ACC":1,"RT":848,"Device":"touch"},{"Trial":14,"Pattern":"0011","ProbRain":0.7,"Outcome":"Sun","Resp":"Sun","ACC":1,"RT":2448,"Device":"touch"},{"Trial":15,"Pattern":"1010","ProbRain":0.2,"Outcome":"Sun","Resp":"Rain","ACC":0,"RT":11793,"Device":"touch"},{"Trial":16,"Pattern":"0110","ProbRain":0.4,"Outcome":"Sun","Resp":"Sun","ACC":1,"RT":576,"Device":"touch"},{"Trial":17,"Pattern":"1100","ProbRain":0.1,"Outcome":"Sun","Resp":"Sun","ACC":1,"RT":1285,"Device":"touch"},{"Trial":18,"Pattern":"0101","ProbRain":0.6,"Outcome":"Rain","Resp":"Sun","ACC":0,"RT":1811,"Device":"touch"},{"Trial":19,"Pattern":"1101","ProbRain":0.9,"Outcome":"Rain","Resp":"Sun","ACC":0,"RT":7655,"Device":"touch"},{"Trial":20,"Pattern":"1110","ProbRain":0.8,"Outcome":"Rain","Resp":"Rain","ACC":1,"RT":784,"Device":"touch"},{"Trial":21,"Pattern":"1001","ProbRain":0.3,"Outcome":"Sun","Resp":"Rain","ACC":0,"RT":1312,"Device":"touch"},{"Trial":22,"Pattern":"1010","ProbRain":0.2,"Outcome":"Rain","Resp":"Rain","ACC":1,"RT":2192,"Device":"touch"},{"Trial":23,"Pattern":"0110","ProbRain":0.4,"Outcome":"Rain","Resp":"Sun","ACC":0,"RT":5546,"Device":"touch"},{"Trial":24,"Pattern":"0101","ProbRain":0.6,"Outcome":"Sun","Resp":"Sun","ACC":1,"RT":696,"Device":"touch"},{"Trial":25,"Pattern":"1101","ProbRain":0.9,"Outcome":"Rain","Resp":"Sun","ACC":0,"RT":608,"Device":"touch"},{"Trial":26,"Pattern":"1100","ProbRain":0.1,"Outcome":"Sun","Resp":"Rain","ACC":0,"RT":1111,"Device":"touch"},{"Trial":27,"Pattern":"0011","ProbRain":0.7,"Outcome":"Rain","Resp":"Sun","ACC":0,"RT":608,"Device":"touch"},{"Trial":28,"Pattern":"1001","ProbRain":0.3,"Outcome":"Rain","Resp":"Rain","ACC":1,"RT":512,"Device":"touch"},{"Trial":29,"Pattern":"1110","ProbRain":0.8,"Outcome":"Rain","Resp":"Sun","ACC":0,"RT":560,"Device":"touch"},{"Trial":30,"Pattern":"0110","ProbRain":0.4,"Outcome":"Sun","Resp":"Sun","ACC":1,"RT":3618,"Device":"touch"},{"Trial":31,"Pattern":"0011","ProbRain":0.7,"Outcome":"Rain","Resp":"Sun","ACC":0,"RT":657,"Device":"touch"},{"Trial":32,"Pattern":"1010","ProbRain":0.2,"Outcome":"Sun","Resp":"Rain","ACC":0,"RT":304,"Device":"touch"},{"Trial":33,"Pattern":"0110","ProbRain":0.4,"Outcome":"Sun","Resp":"Sun","ACC":1,"RT":1184,"Device":"touch"},{"Trial":34,"Pattern":"0101","ProbRain":0.6,"Outcome":"Sun","Resp":"Sun","ACC":1,"RT":1472,"Device":"touch"},{"Trial":35,"Pattern":"0011","ProbRain":0.7,"Outcome":"Rain","Resp":"Sun","ACC":0,"RT":2688,"Device":"touch"},{"Trial":36,"Pattern":"1100","ProbRain":0.1,"Outcome":"Sun","Resp":"Sun","ACC":1,"RT":1408,"Device":"touch"},{"Trial":37,"Pattern":"1110","ProbRain":0.8,"Outcome":"Rain","Resp":"Sun","ACC":0,"RT":3344,"Device":"touch"},{"Trial":38,"Pattern":"1101","ProbRain":0.9,"Outcome":"Rain","Resp":"Sun","ACC":0,"RT":720,"Device":"touch"},{"Trial":39,"Pattern":"1010","ProbRain":0.2,"Outcome":"Sun","Resp":"Rain","ACC":0,"RT":848,"Device":"touch"},{"Trial":40,"Pattern":"0110","ProbRain":0.4,"Outcome":"Sun","Resp":"Sun","ACC":1,"RT":1015,"Device":"touch"},{"Trial":41,"Pattern":"1001","ProbRain":0.3,"Outcome":"Sun","Resp":"Sun","ACC":1,"RT":960,"Device":"touch"},{"Trial":42,"Pattern":"1110","ProbRain":0.8,"Outcome":"Rain","Resp":"Sun","ACC":0,"RT":608,"Device":"touch"},{"Trial":43,"Pattern":"1101","ProbRain":0.9,"Outcome":"Rain","Resp":"Sun","ACC":0,"RT":720,"Device":"touch"},{"Trial":44,"Pattern":"0011","ProbRain":0.7,"Outcome":"Rain","Resp":"Rain","ACC":1,"RT":1190,"Device":"touch"},{"Trial":45,"Pattern":"1001","ProbRain":0.3,"Outcome":"Sun","Resp":"Sun","ACC":1,"RT":1361,"Device":"touch"},{"Trial":46,"Pattern":"0101","ProbRain":0.6,"Outcome":"Sun","Resp":"Sun","ACC":1,"RT":656,"Device":"touch"},{"Trial":47,"Pattern":"1100","ProbRain":0.1,"Outcome":"Sun","Resp":"Sun","ACC":1,"RT":1808,"Device":"touch"},{"Trial":48,"Pattern":"1010","ProbRain":0.2,"Outcome":"Sun","Resp":"Sun","ACC":1,"RT":1370,"Device":"touch"},{"Trial":49,"Pattern":"1101","ProbRain":0.9,"Outcome":"Rain","Resp":"Sun","ACC":0,"RT":1440,"Device":"touch"},{"Trial":50,"Pattern":"0110","ProbRain":0.4,"Outcome":"Sun","Resp":"Rain","ACC":0,"RT":928,"Device":"touch"},{"Trial":51,"Pattern":"1001","ProbRain":0.3,"Outcome":"Rain","Resp":"Sun","ACC":0,"RT":16,"Device":"touch"},{"Trial":52,"Pattern":"1010","ProbRain":0.2,"Outcome":"Sun","Resp":"Sun","ACC":1,"RT":800,"Device":"touch"},{"Trial":53,"Pattern":"1101","ProbRain":0.9,"Outcome":"Rain","Resp":"Sun","ACC":0,"RT":704,"Device":"touch"},{"Trial":54,"Pattern":"0101","ProbRain":0.6,"Outcome":"Rain","Resp":"Sun","ACC":0,"RT":618,"Device":"touch"},{"Trial":55,"Pattern":"0110","ProbRain":0.4,"Outcome":"Sun","Resp":"Sun","ACC":1,"RT":208,"Device":"touch"},{"Trial":56,"Pattern":"1110","ProbRain":0.8,"Outcome":"Rain","Resp":"Sun","ACC":0,"RT":160,"Device":"touch"},{"Trial":57,"Pattern":"0011","ProbRain":0.7,"Outcome":"Rain","Resp":"Sun","ACC":0,"RT":1376,"Device":"touch"},{"Trial":58,"Pattern":"1100","ProbRain":0.1,"Outcome":"Sun","Resp":"Sun","ACC":1,"RT":1642,"Device":"touch"},{"Trial":59,"Pattern":"0101","ProbRain":0.6,"Outcome":"Rain","Resp":"Sun","ACC":0,"RT":504,"Device":"touch"},{"Trial":60,"Pattern":"1010","ProbRain":0.2,"Outcome":"Rain","Resp":"Sun","ACC":0,"RT":1776,"Device":"touch"},{"Trial":61,"Pattern":"1001","ProbRain":0.3,"Outcome":"Sun","Resp":"Sun","ACC":1,"RT":144,"Device":"touch"},{"Trial":62,"Pattern":"1100","ProbRain":0.1,"Outcome":"Sun","Resp":"Sun","ACC":1,"RT":32,"Device":"touch"},{"Trial":63,"Pattern":"1110","ProbRain":0.8,"Outcome":"Sun","Resp":"Sun","ACC":1,"RT":192,"Device":"touch"},{"Trial":64,"Pattern":"0011","ProbRain":0.7,"Outcome":"Sun","Resp":"Sun","ACC":1,"RT":144,"Device":"touch"},{"Trial":65,"Pattern":"1100","ProbRain":0.1,"Outcome":"Sun","Resp":"Sun","ACC":1,"RT":944,"Device":"touch"},{"Trial":66,"Pattern":"0110","ProbRain":0.4,"Outcome":"Rain","Resp":"Sun","ACC":0,"RT":4202,"Device":"touch"},{"Trial":67,"Pattern":"0011","ProbRain":0.7,"Outcome":"Sun","Resp":"Sun","ACC":1,"RT":96,"Device":"touch"},{"Trial":68,"Pattern":"1010","ProbRain":0.2,"Outcome":"Sun","Resp":"Sun","ACC":1,"RT":160,"Device":"touch"},{"Trial":69,"Pattern":"1101","ProbRain":0.9,"Outcome":"Rain","Resp":"Sun","ACC":0,"RT":128,"Device":"touch"},{"Trial":70,"Pattern":"0101","ProbRain":0.6,"Outcome":"Sun","Resp":"Sun","ACC":1,"RT":784,"Device":"touch"},{"Trial":71,"Pattern":"1001","ProbRain":0.3,"Outcome":"Sun","Resp":"Sun","ACC":1,"RT":736,"Device":"touch"},{"Trial":72,"Pattern":"1100","ProbRain":0.1,"Outcome":"Sun","Resp":"Sun","ACC":1,"RT":192,"Device":"touch"},{"Trial":73,"Pattern":"1110","ProbRain":0.8,"Outcome":"Rain","Resp":"Sun","ACC":0,"RT":704,"Device":"touch"},{"Trial":74,"Pattern":"1010","ProbRain":0.2,"Outcome":"Sun","Resp":"Sun","ACC":1,"RT":2598,"Device":"touch"},{"Trial":75,"Pattern":"0101","ProbRain":0.6,"Outcome":"Rain","Resp":"Sun","ACC":0,"RT":475,"Device":"touch"},{"Trial":76,"Pattern":"0011","ProbRain":0.7,"Outcome":"Rain","Resp":"Sun","ACC":0,"RT":1969,"Device":"touch"},{"Trial":77,"Pattern":"0110","ProbRain":0.4,"Outcome":"Rain","Resp":"Rain","ACC":1,"RT":832,"Device":"touch"},{"Trial":78,"Pattern":"1101","ProbRain":0.9,"Outcome":"Rain","Resp":"Rain","ACC":1,"RT":416,"Device":"touch"},{"Trial":79,"Pattern":"1001","ProbRain":0.3,"Outcome":"Rain","Resp":"Rain","ACC":1,"RT":416,"Device":"touch"},{"Trial":80,"Pattern":"1110","ProbRain":0.8,"Outcome":"Rain","Resp":"Rain","ACC":1,"RT":2790,"Device":"touch"}]
