[{"Trial":1,"Type":"Go","Stim":"Green","SSD":0,"CResp":"Left","Resp":"None","RT":0,"ACC":-1,"Device":"None"},{"Trial":2,"Type":"Go","Stim":"Blue","SSD":0,"CResp":"Right","Resp":"Right","RT":683,"ACC":1,"Device":"Touchscreen"},{"Trial":3,"Type":"Go","Stim":"Green","SSD":0,"CResp":"Left","Resp":"Left","RT":366,"ACC":1,"Device":"Touchscreen"},{"Trial":4,"Type":"Go","Stim":"Blue","SSD":0,"CResp":"Right","Resp":"Right","RT":385,"ACC":1,"Device":"Touchscreen"},{"Trial":5,"Type":"Go","Stim":"Green","SSD":0,"CResp":"Left","Resp":"Left","RT":369,"ACC":1,"Device":"Touchscreen"},{"Trial":6,"Type":"Stop2","Stim":"Green","SSD":500,"CResp":"None","Resp":"Right","RT":384,"ACC":0,"Device":"Touchscreen"},{"Trial":7,"Type":"Go","Stim":"Blue","SSD":0,"CResp":"Right","Resp":"Left","RT":299,"ACC":0,"Device":"Touchscreen"},{"Trial":8,"Type":"Go","Stim":"Green","SSD":0,"CResp":"Left","Resp":"Right","RT":366,"ACC":0,"Device":"Touchscreen"},{"Trial":9,"Type":"Go","Stim":"Blue","SSD":0,"CResp":"Right","Resp":"Left","RT":534,"ACC":0,"Device":"Touchscreen"},{"Trial":10,"Type":"Go","Stim":"Blue","SSD":0,"CResp":"Right","Resp":"Right","RT":352,"ACC":1,"Device":"Touchscreen"},{"Trial":11,"Type":"Go","Stim":"Green","SSD":0,"CResp":"Left","Resp":"Right","RT":416,"ACC":0,"Device":"Touchscreen"},{"Trial":12,"Type":"Stop2","Stim":"Green","SSD":450,"CResp":"None","Resp":"Left","RT":319,"ACC":0,"Device":"Touchscreen"},{"Trial":13,"Type":"Go","Stim":"Green","SSD":0,"CResp":"Left","Resp":"Right","RT":452,"ACC":0,"Device":"Touchscreen"},{"Trial":14,"Type":"Go","Stim":"Blue","SSD":0,"CResp":"Right","Resp":"Left","RT":518,"ACC":0,"Device":"Touchscreen"},{"Trial":15,"Type":"Go","Stim":"Blue","SSD":0,"CResp":"Right","Resp":"Right","RT":616,"ACC":1,"Device":"Touchscreen"},{"Trial":16,"Type":"Go","Stim":"Blue","SSD":0,"CResp":"Right","Resp":"Right","RT":633,"ACC":1,"Device":"Touchscreen"},{"Trial":17,"Type":"Go","Stim":"Green","SSD":0,"CResp":"Left","Resp":"Left","RT":584,"ACC":1,"Device":"Touchscreen"},{"Trial":18,"Type":"Stop1","Stim":"Green","SSD":250,"CResp":"None","Resp":"Left","RT":450,"ACC":0,"Device":"Touchscreen"},{"Trial":19,"Type":"Go","Stim":"Green","SSD":0,"CResp":"Left","Resp":"Right","RT":550,"ACC":0,"Device":"Touchscreen"},{"Trial":20,"Type":"Stop2","Stim":"Green","SSD":400,"CResp":"None","Resp":"Left","RT":567,"ACC":0,"Device":"Touchscreen"},{"Trial":21,"Type":"Go","Stim":"Blue","SSD":0,"CResp":"Right","Resp":"Right","RT":484,"ACC":1,"Device":"Touchscreen"},{"Trial":22,"Type":"Go","Stim":"Blue","SSD":0,"CResp":"Right","Resp":"Left","RT":723,"ACC":0,"Device":"Touchscreen"},{"Trial":23,"Type":"Go","Stim":"Blue","SSD":0,"CResp":"Right","Resp":"Right","RT":517,"ACC":1,"Device":"Touchscreen"},{"Trial":24,"Type":"Go","Stim":"Blue","SSD":0,"CResp":"Right","Resp":"Right","RT":517,"ACC":1,"Device":"Touchscreen"},{"Trial":25,"Type":"Stop2","Stim":"Green","SSD":350,"CResp":"None","Resp":"Left","RT":665,"ACC":0,"Device":"Touchscreen"},{"Trial":26,"Type":"Go","Stim":"Green","SSD":0,"CResp":"Left","Resp":"None","RT":0,"ACC":-1,"Device":"None"},{"Trial":27,"Type":"Go","Stim":"Blue","SSD":0,"CResp":"Right","Resp":"Right","RT":534,"ACC":1,"Device":"Touchscreen"},{"Trial":28,"Type":"Go","Stim":"Green","SSD":0,"CResp":"Left","Resp":"None","RT":0,"ACC":-1,"Device":"None"},{"Trial":29,"Type":"Go","Stim":"Blue","SSD":0,"CResp":"Right","Resp":"Right","RT":601,"ACC":1,"Device":"Touchscreen"},{"Trial":30,"Type":"Stop2","Stim":"Blue","SSD":300,"CResp":"None","Resp":"None","RT":0,"ACC":1,"Device":"None"},{"Trial":31,"Type":"Stop2","Stim":"Blue","SSD":350,"CResp":"None","Resp":"Right","RT":596,"ACC":0,"Device":"Touchscreen"},{"Trial":32,"Type":"Go","Stim":"Green","SSD":0,"CResp":"Left","Resp":"Left","RT":516,"ACC":1,"Device":"Touchscreen"},{"Trial":33,"Type":"Stop1","Stim":"Blue","SSD":200,"CResp":"None","Resp":"None","RT":0,"ACC":1,"Device":"None"},{"Trial":34,"Type":"Go","Stim":"Blue","SSD":0,"CResp":"Right","Resp":"None","RT":0,"ACC":-1,"Device":"None"},{"Trial":35,"Type":"Go","Stim":"Blue","SSD":0,"CResp":"Right","Resp":"None","RT":0,"ACC":-1,"Device":"None"},{"Trial":36,"Type":"Go","Stim":"Blue","SSD":0,"CResp":"Right","Resp":"Left","RT":483,"ACC":0,"Device":"Touchscreen"},{"Trial":37,"Type":"Go","Stim":"Blue","SSD":0,"CResp":"Right","Resp":"Left","RT":569,"ACC":0,"Device":"Touchscreen"},{"Trial":38,"Type":"Go","Stim":"Blue","SSD":0,"CResp":"Right","Resp":"Right","RT":533,"ACC":1,"Device":"Touchscreen"},{"Trial":39,"Type":"Stop2","Stim":"Green","SSD":300,"CResp":"None","Resp":"None","RT":0,"ACC":1,"Device":"None"},{"Trial":40,"Type":"Go","Stim":"Green","SSD":0,"CResp":"Left","Resp":"None","RT":0,"ACC":-1,"Device":"None"},{"Trial":41,"Type":"Go","Stim":"Blue","SSD":0,"CResp":"Right","Resp":"Right","RT":684,"ACC":1,"Device":"Touchscreen"},{"Trial":42,"Type":"Stop1","Stim":"Blue","SSD":250,"CResp":"None","Resp":"None","RT":0,"ACC":1,"Device":"None"},{"Trial":43,"Type":"Go","Stim":"Green","SSD":0,"CResp":"Left","Resp":"Left","RT":615,"ACC":1,"Device":"Touchscreen"},{"Trial":44,"Type":"Go","Stim":"Blue","SSD":0,"CResp":"Right","Resp":"None","RT":0,"ACC":-1,"Device":"None"},{"Trial":45,"Type":"Go","Stim":"Blue","SSD":0,"CResp":"Right","Resp":"Right","RT":482,"ACC":1,"Device":"Touchscreen"},{"Trial":46,"Type":"Go","Stim":"Green","SSD":0,"CResp":"Left","Resp":"Right","RT":619,"ACC":0,"Device":"Touchscreen"},{"Trial":47,"Type":"Stop1","Stim":"Blue","SSD":300,"CResp":"None","Resp":"Left","RT":568,"ACC":0,"Device":"Touchscreen"},{"Trial":48,"Type":"Go","Stim":"Green","SSD":0,"CResp":"Left","Resp":"None","RT":0,"ACC":-1,"Device":"None"},{"Trial":49,"Type":"Go","Stim":"Green","SSD":0,"CResp":"Left","Resp":"Right","RT":666,"ACC":0,"Device":"Touchscreen"},{"Trial":50,"Type":"Go","Stim":"Blue","SSD":0,"CResp":"Right","Resp":"None","RT":0,"ACC":-1,"Device":"None"},{"Trial":51,"Type":"Stop2","Stim":"Blue","SSD":350,"CResp":"None","Resp":"Right","RT":582,"ACC":0,"Device":"Touchscreen"},{"Trial":52,"Type":"Go","Stim":"Green","SSD":0,"CResp":"Left","Resp":"None","RT":0,"ACC":-1,"Device":"None"},{"Trial":53,"Type":"Go","Stim":"Green","SSD":0,"CResp":"Left","Resp":"Left","RT":451,"ACC":1,"Device":"Touchscreen"},{"Trial":54,"Type":"Go","Stim":"Green","SSD":0,"CResp":"Left","Resp":"Left","RT":634,"ACC":1,"Device":"Touchscreen"},{"Trial":55,"Type":"Go","Stim":"Blue","SSD":0,"CResp":"Right","Resp":"Right","RT":617,"ACC":1,"Device":"Touchscreen"},{"Trial":56,"Type":"Go","Stim":"Blue","SSD":0,"CResp":"Right","Resp":"Left","RT":436,"ACC":0,"Device":"Touchscreen"},{"Trial":57,"Type":"Go","Stim":"Green","SSD":0,"CResp":"Left","Resp":"Left","RT":566,"ACC":1,"Device":"Touchscreen"},{"Trial":58,"Type":"Stop2","Stim":"Green","SSD":300,"CResp":"None","Resp":"Right","RT":535,"ACC":0,"Device":"Touchscreen"},{"Trial":59,"Type":"Go","Stim":"Blue","SSD":0,"CResp":"Right","Resp":"None","RT":0,"ACC":-1,"Device":"None"},{"Trial":60,"Type":"Go","Stim":"Blue","SSD":0,"CResp":"Right","Resp":"Left","RT":601,"ACC":0,"Device":"Touchscreen"},{"Trial":61,"Type":"Stop1","Stim":"Blue","SSD":250,"CResp":"None","Resp":"None","RT":0,"ACC":1,"Device":"None"},{"Trial":62,"Type":"Go","Stim":"Blue","SSD":0,"CResp":"Right","Resp":"Left","RT":598,"ACC":0,"Device":"Touchscreen"},{"Trial":63,"Type":"Stop2","Stim":"Blue","SSD":250,"CResp":"None","Resp":"None","RT":0,"ACC":1,"Device":"None"},{"Trial":64,"Type":"Go","Stim":"Blue","SSD":0,"CResp":"Right","Resp":"None","RT":0,"ACC":-1,"Device":"None"},{"Trial":65,"Type":"Stop2","Stim":"Green","SSD":300,"CResp":"None","Resp":"Left","RT":502,"ACC":0,"Device":"Touchscreen"},{"Trial":66,"Type":"Go","Stim":"Green","SSD":0,"CResp":"Left","Resp":"Right","RT":434,"ACC":0,"Device":"Touchscreen"},{"Trial":67,"Type":"Go","Stim":"Green","SSD":0,"CResp":"Left","Resp":"Left","RT":453,"ACC":1,"Device":"Touchscreen"},{"Trial":68,"Type":"Go","Stim":"Green","SSD":0,"CResp":"Left","Resp":"Left","RT":568,"ACC":1,"Device":"Touchscreen"},{"Trial":69,"Type":"Go","Stim":"Green","SSD":0,"CResp":"Left","Resp":"Left","RT":500,"ACC":1,"Device":"Touchscreen"},{"Trial":70,"Type":"Go","Stim":"Green","SSD":0,"CResp":"Left","Resp":"Left","RT":650,"ACC":1,"Device":"Touchscreen"},{"Trial":71,"Type":"Stop1","Stim":"Green","SSD":300,"CResp":"None","Resp":"Left","RT":435,"ACC":0,"Device":"Touchscreen"},{"Trial":72,"Type":"Go","Stim":"Green","SSD":0,"CResp":"Left","Resp":"None","RT":0,"ACC":-1,"Device":"None"},{"Trial":73,"Type":"Go","Stim":"Green","SSD":0,"CResp":"Left","Resp":"Left","RT":434,"ACC":1,"Device":"Touchscreen"},{"Trial":74,"Type":"Go","Stim":"Blue","SSD":0,"CResp":"Right","Resp":"Right","RT":385,"ACC":1,"Device":"Touchscreen"},{"Trial":75,"Type":"Stop1","Stim":"Blue","SSD":250,"CResp":"None","Resp":"Right","RT":467,"ACC":0,"Device":"Touchscreen"},{"Trial":76,"Type":"Go","Stim":"Green","SSD":0,"CResp":"Left","Resp":"Left","RT":550,"ACC":1,"Device":"Touchscreen"},{"Trial":77,"Type":"Go","Stim":"Green","SSD":0,"CResp":"Left","Resp":"Left","RT":569,"ACC":1,"Device":"Touchscreen"},{"Trial":78,"Type":"Stop2","Stim":"Blue","SSD":250,"CResp":"None","Resp":"None","RT":0,"ACC":1,"Device":"None"},{"Trial":79,"Type":"Go","Stim":"Green","SSD":0,"CResp":"Left","Resp":"Left","RT":432,"ACC":1,"Device":"Touchscreen"},{"Trial":80,"Type":"Go","Stim":"Blue","SSD":0,"CResp":"Right","Resp":"Right","RT":432,"ACC":1,"Device":"Touchscreen"},{"Trial":81,"Type":"Go","Stim":"Blue","SSD":0,"CResp":"Right","Resp":"Left","RT":652,"ACC":0,"Device":"Touchscreen"},{"Trial":82,"Type":"Go","Stim":"Blue","SSD":0,"CResp":"Right","Resp":"Right","RT":534,"ACC":1,"Device":"Touchscreen"},{"Trial":83,"Type":"Stop2","Stim":"Green","SSD":300,"CResp":"None","Resp":"Left","RT":683,"ACC":0,"Device":"Touchscreen"},{"Trial":84,"Type":"Go","Stim":"Green","SSD":0,"CResp":"Left","Resp":"None","RT":0,"ACC":-1,"Device":"None"},{"Trial":85,"Type":"Go","Stim":"Blue","SSD":0,"CResp":"Right","Resp":"Left","RT":500,"ACC":0,"Device":"Touchscreen"},{"Trial":86,"Type":"Go","Stim":"Green","SSD":0,"CResp":"Left","Resp":"None","RT":0,"ACC":-1,"Device":"None"},{"Trial":87,"Type":"Go","Stim":"Green","SSD":0,"CResp":"Left","Resp":"Right","RT":566,"ACC":0,"Device":"Touchscreen"},{"Trial":88,"Type":"Stop2","Stim":"Blue","SSD":250,"CResp":"None","Resp":"Left","RT":534,"ACC":0,"Device":"Touchscreen"},{"Trial":89,"Type":"Go","Stim":"Green","SSD":0,"CResp":"Left","Resp":"Left","RT":550,"ACC":1,"Device":"Touchscreen"},{"Trial":90,"Type":"Go","Stim":"Green","SSD":0,"CResp":"Left","Resp":"Right","RT":484,"ACC":0,"Device":"Touchscreen"},{"Trial":91,"Type":"Go","Stim":"Green","SSD":0,"CResp":"Left","Resp":"Left","RT":448,"ACC":1,"Device":"Touchscreen"},{"Trial":92,"Type":"Stop1","Stim":"Green","SSD":200,"CResp":"None","Resp":"None","RT":0,"ACC":1,"Device":"None"},{"Trial":93,"Type":"Go","Stim":"Blue","SSD":0,"CResp":"Right","Resp":"Left","RT":383,"ACC":0,"Device":"Touchscreen"},{"Trial":94,"Type":"Go","Stim":"Green","SSD":0,"CResp":"Left","Resp":"Left","RT":501,"ACC":1,"Device":"Touchscreen"},{"Trial":95,"Type":"Go","Stim":"Green","SSD":0,"CResp":"Left","Resp":"Left","RT":634,"ACC":1,"Device":"Touchscreen"},{"Trial":96,"Type":"Stop1","Stim":"Blue","SSD":250,"CResp":"None","Resp":"Left","RT":433,"ACC":0,"Device":"Touchscreen"},{"Trial":97,"Type":"Stop1","Stim":"Green","SSD":200,"CResp":"None","Resp":"None","RT":0,"ACC":1,"Device":"None"},{"Trial":98,"Type":"Go","Stim":"Blue","SSD":0,"CResp":"Right","Resp":"Left","RT":699,"ACC":0,"Device":"Touchscreen"},{"Trial":99,"Type":"Go","Stim":"Blue","SSD":0,"CResp":"Right","Resp":"Right","RT":633,"ACC":1,"Device":"Touchscreen"},{"Trial":100,"Type":"Stop1","Stim":"Blue","SSD":250,"CResp":"None","Resp":"None","RT":0,"ACC":1,"Device":"None"},{"Trial":101,"Type":"Go","Stim":"Blue","SSD":0,"CResp":"Right","Resp":"Right","RT":533,"ACC":1,"Device":"Touchscreen"},{"Trial":102,"Type":"Go","Stim":"Green","SSD":0,"CResp":"Left","Resp":"Left","RT":467,"ACC":1,"Device":"Touchscreen"},{"Trial":103,"Type":"Go","Stim":"Blue","SSD":0,"CResp":"Right","Resp":"Right","RT":600,"ACC":1,"Device":"Touchscreen"},{"Trial":104,"Type":"Stop2","Stim":"Blue","SSD":200,"CResp":"None","Resp":"None","RT":0,"ACC":1,"Device":"None"},{"Trial":105,"Type":"Go","Stim":"Green","SSD":0,"CResp":"Left","Resp":"Left","RT":467,"ACC":1,"Device":"Touchscreen"},{"Trial":106,"Type":"Go","Stim":"Blue","SSD":0,"CResp":"Right","Resp":"Right","RT":383,"ACC":1,"Device":"Touchscreen"},{"Trial":107,"Type":"Go","Stim":"Blue","SSD":0,"CResp":"Right","Resp":"Left","RT":367,"ACC":0,"Device":"Touchscreen"},{"Trial":108,"Type":"Go","Stim":"Blue","SSD":0,"CResp":"Right","Resp":"Right","RT":517,"ACC":1,"Device":"Touchscreen"},{"Trial":109,"Type":"Stop2","Stim":"Green","SSD":250,"CResp":"None","Resp":"Right","RT":517,"ACC":0,"Device":"Touchscreen"},{"Trial":110,"Type":"Go","Stim":"Blue","SSD":0,"CResp":"Right","Resp":"None","RT":0,"ACC":-1,"Device":"None"},{"Trial":111,"Type":"Stop1","Stim":"Green","SSD":300,"CResp":"None","Resp":"Left","RT":484,"ACC":0,"Device":"Touchscreen"},{"Trial":112,"Type":"Go","Stim":"Blue","SSD":0,"CResp":"Right","Resp":"None","RT":0,"ACC":-1,"Device":"None"},{"Trial":113,"Type":"Go","Stim":"Blue","SSD":0,"CResp":"Right","Resp":"Right","RT":517,"ACC":1,"Device":"Touchscreen"},{"Trial":114,"Type":"Go","Stim":"Green","SSD":0,"CResp":"Left","Resp":"Left","RT":533,"ACC":1,"Device":"Touchscreen"},{"Trial":115,"Type":"Go","Stim":"Blue","SSD":0,"CResp":"Right","Resp":"Right","RT":467,"ACC":1,"Device":"Touchscreen"},{"Trial":116,"Type":"Go","Stim":"Green","SSD":0,"CResp":"Left","Resp":"Left","RT":550,"ACC":1,"Device":"Touchscreen"},{"Trial":117,"Type":"Go","Stim":"Green","SSD":0,"CResp":"Left","Resp":"Right","RT":383,"ACC":0,"Device":"Touchscreen"},{"Trial":118,"Type":"Stop2","Stim":"Green","SSD":200,"CResp":"None","Resp":"Left","RT":535,"ACC":0,"Device":"Touchscreen"},{"Trial":119,"Type":"Go","Stim":"Blue","SSD":0,"CResp":"Right","Resp":"Right","RT":600,"ACC":1,"Device":"Touchscreen"},{"Trial":120,"Type":"Go","Stim":"Green","SSD":0,"CResp":"Left","Resp":"Left","RT":701,"ACC":1,"Device":"Touchscreen"},{"Trial":121,"Type":"Stop2","Stim":"Blue","SSD":150,"CResp":"None","Resp":"None","RT":0,"ACC":1,"Device":"None"},{"Trial":122,"Type":"Go","Stim":"Green","SSD":0,"CResp":"Left","Resp":"Left","RT":496,"ACC":1,"Device":"Touchscreen"},{"Trial":123,"Type":"Stop2","Stim":"Blue","SSD":200,"CResp":"None","Resp":"Right","RT":551,"ACC":0,"Device":"Touchscreen"},{"Trial":124,"Type":"Go","Stim":"Blue","SSD":0,"CResp":"Right","Resp":"None","RT":0,"ACC":-1,"Device":"None"},{"Trial":125,"Type":"Go","Stim":"Blue","SSD":0,"CResp":"Right","Resp":"Left","RT":516,"ACC":0,"Device":"Touchscreen"},{"Trial":126,"Type":"Go","Stim":"Green","SSD":0,"CResp":"Left","Resp":"Right","RT":533,"ACC":0,"Device":"Touchscreen"},{"Trial":127,"Type":"Go","Stim":"Blue","SSD":0,"CResp":"Right","Resp":"None","RT":0,"ACC":-1,"Device":"None"},{"Trial":128,"Type":"Stop1","Stim":"Green","SSD":250,"CResp":"None","Resp":"None","RT":0,"ACC":1,"Device":"None"},{"Trial":129,"Type":"Go","Stim":"Blue","SSD":0,"CResp":"Right","Resp":"Left","RT":564,"ACC":0,"Device":"Touchscreen"},{"Trial":130,"Type":"Stop1","Stim":"Blue","SSD":300,"CResp":"None","Resp":"None","RT":0,"ACC":1,"Device":"None"},{"Trial":131,"Type":"Go","Stim":"Green","SSD":0,"CResp":"Left","Resp":"Left","RT":698,"ACC":1,"Device":"Touchscreen"},{"Trial":132,"Type":"Go","Stim":"Green","SSD":0,"CResp":"Left","Resp":"None","RT":0,"ACC":-1,"Device":"None"},{"Trial":133,"Type":"Go","Stim":"Blue","SSD":0,"CResp":"Right","Resp":"Right","RT":401,"ACC":1,"Device":"Touchscreen"},{"Trial":134,"Type":"Go","Stim":"Green","SSD":0,"CResp":"Left","Resp":"Left","RT":585,"ACC":1,"Device":"Touchscreen"},{"Trial":135,"Type":"Go","Stim":"Green","SSD":0,"CResp":"Left","Resp":"Right","RT":417,"ACC":0,"Device":"Touchscreen"},{"Trial":136,"Type":"Stop1","Stim":"Blue","SSD":350,"CResp":"None","Resp":"Left","RT":417,"ACC":0,"Device":"Touchscreen"},{"Trial":137,"Type":"Go","Stim":"Green","SSD":0,"CResp":"Left","Resp":"Right","RT":684,"ACC":0,"Device":"Touchscreen"},{"Trial":138,"Type":"Stop1","Stim":"Green","SSD":300,"CResp":"None","Resp":"Left","RT":651,"ACC":0,"Device":"Touchscreen"},{"Trial":139,"Type":"Go","Stim":"Blue","SSD":0,"CResp":"Right","Resp":"None","RT":0,"ACC":-1,"Device":"None"},{"Trial":140,"Type":"Go","Stim":"Green","SSD":0,"CResp":"Left","Resp":"Left","RT":583,"ACC":1,"Device":"Touchscreen"},{"Trial":141,"Type":"Go","Stim":"Blue","SSD":0,"CResp":"Right","Resp":"Right","RT":601,"ACC":1,"Device":"Touchscreen"},{"Trial":142,"Type":"Go","Stim":"Green","SSD":0,"CResp":"Left","Resp":"Left","RT":584,"ACC":1,"Device":"Touchscreen"},{"Trial":143,"Type":"Go","Stim":"Blue","SSD":0,"CResp":"Right","Resp":"None","RT":0,"ACC":-1,"Device":"None"},{"Trial":144,"Type":"Stop2","Stim":"Blue","SSD":150,"CResp":"None","Resp":"Left","RT":633,"ACC":0,"Device":"Touchscreen"},{"Trial":145,"Type":"Go","Stim":"Green","SSD":0,"CResp":"Left","Resp":"Right","RT":367,"ACC":0,"Device":"Touchscreen"},{"Trial":146,"Type":"Go","Stim":"Green","SSD":0,"CResp":"Left","Resp":"Left","RT":417,"ACC":1,"Device":"Touchscreen"},{"Trial":147,"Type":"Go","Stim":"Green","SSD":0,"CResp":"Left","Resp":"Left","RT":633,"ACC":1,"Device":"Touchscreen"},{"Trial":148,"Type":"Stop1","Stim":"Green","SSD":250,"CResp":"None","Resp":"Left","RT":367,"ACC":0,"Device":"Touchscreen"},{"Trial":149,"Type":"Go","Stim":"Green","SSD":0,"CResp":"Left","Resp":"Left","RT":599,"ACC":1,"Device":"Touchscreen"},{"Trial":150,"Type":"Go","Stim":"Blue","SSD":0,"CResp":"Right","Resp":"None","RT":0,"ACC":-1,"Device":"None"},{"Trial":151,"Type":"Go","Stim":"Green","SSD":0,"CResp":"Left","Resp":"Left","RT":451,"ACC":1,"Device":"Touchscreen"},{"Trial":152,"Type":"Go","Stim":"Blue","SSD":0,"CResp":"Right","Resp":"Right","RT":633,"ACC":1,"Device":"Touchscreen"},{"Trial":153,"Type":"Stop1","Stim":"Green","SSD":200,"CResp":"None","Resp":"Left","RT":586,"ACC":0,"Device":"Touchscreen"},{"Trial":154,"Type":"Go","Stim":"Blue","SSD":0,"CResp":"Right","Resp":"None","RT":0,"ACC":-1,"Device":"None"},{"Trial":155,"Type":"Stop1","Stim":"Blue","SSD":150,"CResp":"None","Resp":"Right","RT":284,"ACC":0,"Device":"Touchscreen"},{"Trial":156,"Type":"Go","Stim":"Green","SSD":0,"CResp":"Left","Resp":"Left","RT":667,"ACC":1,"Device":"Touchscreen"},{"Trial":157,"Type":"Go","Stim":"Green","SSD":0,"CResp":"Left","Resp":"None","RT":0,"ACC":-1,"Device":"None"},{"Trial":158,"Type":"Go","Stim":"Blue","SSD":0,"CResp":"Right","Resp":"None","RT":0,"ACC":-1,"Device":"None"},{"Trial":159,"Type":"Stop1","Stim":"Green","SSD":150,"CResp":"None","Resp":"Left","RT":384,"ACC":0,"Device":"Touchscreen"},{"Trial":160,"Type":"Go","Stim":"Blue","SSD":0,"CResp":"Right","Resp":"None","RT":0,"ACC":-1,"Device":"None"}]
